Frequency (Hz),Level (dB)
43.066406,-68.38131
86.132813,-70.240082
129.199219,-70.888939
172.265625,-56.060661
215.332031,-43.710545
258.398438,-44.531212
301.464844,-58.586166
344.53125,-68.66964
387.597656,-66.348351
430.664063,-44.834629
473.730469,-40.361248
516.796875,-47.787277
559.863281,-66.145111
602.929688,-64.037346
645.996094,-49.295242
689.0625,-39.3979
732.128906,-41.727642
775.195313,-59.508766
818.261719,-68.574928
861.328125,-67.35907
904.394531,-55.187923
947.460938,-53.988644
990.527344,-63.041878
1033.59375,-68.269562
1076.660156,-62.189316
1119.726563,-44.921543
1162.792969,-36.410862
1205.859375,-39.931633
1248.925781,-59.371376
1291.992188,-63.799088
1335.058594,-61.653027
1378.125,-48.129913
1421.191406,-46.825386
1464.257813,-57.819607
1507.324219,-71.41468
1550.390625,-71.837112
1593.457031,-61.815083
1636.523438,-55.302719
1679.589844,-60.183853
1722.65625,-76.728386
1765.722656,-72.288025
1808.789063,-57.718109
1851.855469,-44.089085
1894.921875,-43.829769
1937.988281,-56.753662
1981.054688,-74.38456
2024.121094,-75.950127
2067.1875,-63.454182
2110.253906,-58.680946
2153.320313,-64.548233
2196.386719,-76.421303
2239.453125,-72.840744
2282.519531,-62.307858
2325.585938,-50.645115
2368.652344,-51.486771
2411.71875,-66.093719
2454.785156,-76.911705
2497.851563,-73.464355
2540.917969,-57.188992
2583.984375,-53.167294
2627.050781,-60.962051
2670.117188,-76.988014
2713.183594,-73.741737
2756.25,-63.271996
2799.316406,-56.686974
2842.382813,-59.787712
2885.449219,-75.264091
2928.515625,-80.189476
2971.582031,-71.918633
3014.648438,-56.870174
3057.714844,-54.432362
3100.78125,-63.805782
3143.847656,-79.490891
3186.914063,-78.204231
3229.980469,-66.003242
3273.046875,-60.065788
3316.113281,-64.520859
3359.179688,-80.507645
3402.246094,-85.893593
3445.3125,-81.658745
3488.378906,-67.873672
3531.445313,-66.436234
3574.511719,-76.892586
3617.578125,-87.040749
3660.644531,-80.093315
3703.710938,-67.174606
3746.777344,-60.87442
3789.84375,-65.476967
3832.910156,-85.691757
3875.976563,-92.400253
3919.042969,-79.058731
3962.109375,-74.252571
4005.175781,-77.725739
4048.242188,-85.914474
4091.308594,-89.429008
4134.375,-81.63472
4177.441406,-71.091003
4220.507813,-67.017365
4263.574219,-73.151123
4306.640625,-88.408722
4349.707031,-87.388954
4392.773438,-76.001038
4435.839844,-67.392761
4478.90625,-69.265732
4521.972656,-82.641579
4565.039063,-90.414299
4608.105469,-83.885071
4651.171875,-71.897293
4694.238281,-68.654068
4737.304688,-76.380676
4780.371094,-88.272102
4823.4375,-84.371323
4866.503906,-75.483452
4909.570313,-67.639648
4952.636719,-70.342384
4995.703125,-85.742065
5038.769531,-92.403603
5081.835938,-86.038589
5124.902344,-75.30941
5167.96875,-73.403709
5211.035156,-82.096947
5254.101563,-94.272346
5297.167969,-90.671669
5340.234375,-80.70726
5383.300781,-73.563293
5426.367188,-76.473953
5469.433594,-90.943169
5512.5,-92.036972
5555.566406,-86.302315
5598.632813,-76.871506
5641.699219,-75.547745
5684.765625,-84.845634
5727.832031,-97.555405
5770.898438,-91.141357
5813.964844,-83.385025
5857.03125,-80.526199
5900.097656,-85.347145
5943.164063,-94.412674
5986.230469,-95.099678
6029.296875,-87.208954
6072.363281,-76.620453
6115.429688,-76.836029
6158.496094,-88.118927
6201.5625,-97.843704
6244.628906,-94.376381
6287.695313,-87.288597
6330.761719,-86.451286
6373.828125,-92.570786
6416.894531,-96.242088
6459.960938,-89.480392
6503.027344,-81.310768
6546.09375,-72.305504
6589.160156,-73.609612
6632.226563,-84.786453
6675.292969,-90.667061
6718.359375,-84.373787
6761.425781,-71.040916
6804.492188,-67.75528
6847.558594,-75.361229
6890.625,-87.6548
6933.691406,-84.688667
6976.757813,-77.825806
7019.824219,-70.755661
7062.890625,-73.214111
7105.957031,-87.020157
7149.023438,-91.361061
7192.089844,-84.187309
7235.15625,-73.257614
7278.222656,-71.559143
7321.289063,-80.810669
7364.355469,-91.698433
7407.421875,-89.708374
7450.488281,-81.656853
7493.554688,-78.443581
7536.621094,-82.598495
7579.6875,-93.444923
7622.753906,-92.280067
7665.820313,-83.562515
7708.886719,-72.637894
7751.953125,-71.595993
7795.019531,-80.930237
7838.085938,-85.518929
7881.152344,-77.857582
7924.21875,-68.971474
7967.285156,-63.949333
8010.351563,-69.002647
8053.417969,-82.763344
8096.484375,-81.984818
8139.550781,-73.205315
8182.617188,-64.391479
8225.683594,-65.037643
8268.75,-76.47538
8311.816406,-84.550415
8354.882813,-79.274033
8397.949219,-69.952408
8441.015625,-66.207306
8484.082031,-72.099007
8527.148438,-82.365852
8570.214844,-81.906631
8613.28125,-72.85556
8656.347656,-64.560463
8699.414063,-66.072548
8742.480469,-77.403969
8785.546875,-85.440422
8828.613281,-81.085426
8871.679688,-74.528847
8914.746094,-73.18557
8957.8125,-79.679359
9000.878906,-90.946671
9043.945313,-91.178017
9087.011719,-80.700188
9130.078125,-73.936256
9173.144531,-76.615753
9216.210938,-86.889229
9259.277344,-93.662369
9302.34375,-90.32299
9345.410156,-85.309357
9388.476563,-85.974899
9431.542969,-92.695793
9474.609375,-94.483139
9517.675781,-90.745369
9560.742188,-80.754784
9603.808594,-74.683365
9646.875,-78.345505
9689.941406,-90.023804
9733.007813,-94.421272
9776.074219,-85.463692
9819.140625,-75.674301
9862.207031,-75.396156
9905.273438,-84.52063
9948.339844,-91.593353
9991.40625,-90.031464
10034.47266,-83.834038
10077.53906,-79.376038
10120.60547,-83.659828
10163.67188,-95.39994
10206.73828,-96.198219
10249.80469,-85.289284
10292.87109,-77.921654
10335.9375,-78.651184
10379.00391,-87.192787
10422.07031,-97.27523
10465.13672,-106.48407
10508.20313,-100.384193
10551.26953,-96.3778
10594.33594,-100.457748
10637.40234,-107.193306
10680.46875,-100.084442
10723.53516,-87.465363
10766.60156,-80.434425
10809.66797,-81.885605
10852.73438,-91.593239
10895.80078,-101.657883
10938.86719,-92.907425
10981.93359,-82.307831
11025,-80.027611
11068.06641,-86.20282
11111.13281,-97.265579
11154.19922,-104.982452
11197.26563,-96.327286
11240.33203,-91.766953
11283.39844,-92.660156
11326.46484,-99.226318
11369.53125,-109.180466
11412.59766,-97.81559
11455.66406,-89.716133
11498.73047,-88.669762
11541.79688,-95.228539
11584.86328,-107.692558
11627.92969,-104.776024
11670.99609,-96.159508
11714.0625,-95.550064
11757.12891,-102.965233
11800.19531,-111.852989
11843.26172,-101.283501
11886.32813,-97.049911
11929.39453,-98.113907
11972.46094,-102.897545
12015.52734,-101.871979
12058.59375,-102.461815
12101.66016,-111.339554
12144.72656,-123.18428
12187.79297,-126.349007
12230.85938,-125.605469
12273.92578,-125.983078
12316.99219,-132.939178
12360.05859,-134.831909
12403.125,-128.357178
12446.19141,-126.418625
12489.25781,-129.30455
12532.32422,-136.026825
12575.39063,-136.521881
12618.45703,-129.361084
12661.52344,-125.279686
12704.58984,-126.172821
12747.65625,-128.398712
12790.72266,-130.539658
12833.78906,-128.796478
12876.85547,-127.773285
12919.92188,-129.492935
12962.98828,-128.203339
13006.05469,-126.229347
13049.12109,-127.492722
13092.1875,-128.48819
13135.25391,-126.373077
13178.32031,-130.896942
13221.38672,-135.661209
13264.45313,-137.108887
13307.51953,-126.419922
13350.58594,-122.611572
13393.65234,-122.492836
13436.71875,-124.199287
13479.78516,-128.193802
13522.85156,-126.350998
13565.91797,-132.632843
13608.98438,-131.074905
13652.05078,-132.415924
13695.11719,-136.331055
13738.18359,-134.708328
13781.25,-135.825363
13824.31641,-138.960236
13867.38281,-137.455658
13910.44922,-139.608109
13953.51563,-137.745026
13996.58203,-138.579498
14039.64844,-137.79631
14082.71484,-138.643097
14125.78125,-141.150681
14168.84766,-138.64917
14211.91406,-137.970764
14254.98047,-139.542984
14298.04688,-140.066269
14341.11328,-139.70961
14384.17969,-138.767654
14427.24609,-135.938141
14470.3125,-134.983978
14513.37891,-133.278275
14556.44531,-136.529312
14599.51172,-138.712997
14642.57813,-137.61853
14685.64453,-139.089478
14728.71094,-140.598816
14771.77734,-138.148956
14814.84375,-138.562759
14857.91016,-139.474884
14900.97656,-140.16597
14944.04297,-140.557358
14987.10938,-139.669525
15030.17578,-138.272476
15073.24219,-138.874283
15116.30859,-141.114349
15159.375,-141.123749
15202.44141,-137.612396
15245.50781,-137.912857
15288.57422,-138.44603
15331.64063,-136.930191
15374.70703,-138.318756
15417.77344,-136.785004
15460.83984,-136.224625
15503.90625,-138.955734
15546.97266,-140.181595
15590.03906,-140.719681
15633.10547,-141.766891
15676.17188,-140.380859
15719.23828,-139.424332
15762.30469,-139.99762
15805.37109,-138.962051
15848.4375,-139.922653
15891.50391,-141.261887
15934.57031,-141.909363
15977.63672,-141.044449
16020.70313,-139.725418
16063.76953,-136.521042
16106.83594,-138.672897
16149.90234,-139.525955
16192.96875,-142.001358
16236.03516,-141.840485
16279.10156,-141.47287
16322.16797,-140.237595
16365.23438,-138.54631
16408.30078,-138.93515
16451.36719,-139.964951
16494.43359,-141.205063
16537.5,-140.893509
16580.56641,-138.304001
16623.63281,-137.982483
16666.69922,-138.530701
16709.76563,-137.77475
16752.83203,-139.228729
16795.89844,-139.830154
16838.96484,-138.173523
16882.03125,-137.121857
16925.09766,-137.325424
16968.16406,-141.218536
17011.23047,-142.703842
17054.29688,-139.081665
17097.36328,-138.402954
17140.42969,-139.219315
17183.49609,-139.919815
17226.5625,-141.88063
17269.62891,-142.033081
17312.69531,-138.521439
17355.76172,-135.043976
17398.82813,-137.206696
17441.89453,-140.235275
17484.96094,-140.488922
17528.02734,-139.399643
17571.09375,-137.647385
17614.16016,-137.528397
17657.22656,-138.348618
17700.29297,-140.833176
17743.35938,-139.81897
17786.42578,-138.139938
17829.49219,-137.020447
17872.55859,-136.87999
17915.625,-137.606354
17958.69141,-138.299011
18001.75781,-139.346176
18044.82422,-138.228485
18087.89063,-135.820953
18130.95703,-137.004807
18174.02344,-140.935638
18217.08984,-140.669342
18260.15625,-140.911682
18303.22266,-136.973709
18346.28906,-135.67984
18389.35547,-139.006805
18432.42188,-140.590744
18475.48828,-140.934509
18518.55469,-140.342346
18561.62109,-138.068344
18604.6875,-137.137787
18647.75391,-137.646729
18690.82031,-138.021255
18733.88672,-139.969864
18776.95313,-143.942169
18820.01953,-142.250809
18863.08594,-141.002899
18906.15234,-142.789658
18949.21875,-143.431808
18992.28516,-144.592346
19035.35156,-144.143219
19078.41797,-140.115097
19121.48438,-139.297318
19164.55078,-136.549347
19207.61719,-138.150238
19250.68359,-140.375381
19293.75,-140.932312
19336.81641,-139.894409
19379.88281,-138.486237
19422.94922,-139.605728
19466.01563,-138.60939
19509.08203,-136.943375
19552.14844,-137.805145
19595.21484,-138.419067
19638.28125,-139.091537
19681.34766,-140.379883
19724.41406,-139.026703
19767.48047,-137.806198
19810.54688,-139.81694
19853.61328,-140.344696
19896.67969,-139.806976
19939.74609,-140.123627
19982.8125,-141.402679
20025.87891,-146.943634
20068.94531,-154.822159
20112.01172,-156.386978
20155.07813,-158.081131
20198.14453,-162.563721
20241.21094,-166.561737
20284.27734,-168.482117
20327.34375,-169.585251
20370.41016,-170.321579
20413.47656,-173.725052
20456.54297,-177.662628
20499.60938,-181.297256
20542.67578,-183.665543
20585.74219,-185.983688
20628.80859,-186.211563
20671.875,-187.786621
20714.94141,-189.923935
20758.00781,-191.814377
20801.07422,-190.288864
20844.14063,-183.163681
20887.20703,-181.675095
20930.27344,-188.079559
20973.33984,-196.248962
21016.40625,-196.138168
21059.47266,-195.829071
21102.53906,-194.831192
21145.60547,-192.922272
21188.67188,-195.772461
21231.73828,-197.226807
21274.80469,-199.78418
21317.87109,-187.806595
21360.9375,-184.365479
21404.00391,-192.462616
21447.07031,-199.466324
21490.13672,-197.894257
21533.20313,-191.467133
21576.26953,-184.768585
21619.33594,-189.714844
21662.40234,-198.405396
21705.46875,-197.73616
21748.53516,-196.58638
21791.60156,-188.837311
21834.66797,-187.790497
21877.73438,-196.195984
21920.80078,-197.507401
21963.86719,-200.456345
22006.93359,-198.223434
